{
    "resourceType" : "Bundle",
    "meta" : {
      "profile" : [ "https://profiles.ihe.net/ITI/MHD/StructureDefinition/IHE.MHD.Comprehensive.ProvideBundle" ]
    },
    "type" : "transaction",
    "entry" : [ {
      "fullUrl" : "urn:uuid:58642ea0-cb28-4757-af3f-88bca44b3002",
      "resource" : {
        "resourceType" : "DocumentReference",
        "meta" : {
          "profile" : [ "https://profiles.ihe.net/ITI/MHD/StructureDefinition/IHE.MHD.Comprehensive.DocumentReference" ]
        },
        "contained" : [ {
          "resourceType" : "PractitionerRole",
          "id" : "${json-unit.any-string}",
          "practitioner" : {
            "reference" : "${json-unit.any-string}"
          },
          "organization" : {
            "reference" : "${json-unit.any-string}"
          },
          "code" : [ {
            "coding" : [ {
              "system" : "urn:oid:1.2.3.1",
              "code" : "role1"
            } ]
          }, {
            "coding" : [ {
              "code" : "role2"
            } ]
          } ],
          "specialty" : [ {
            "coding" : [ {
              "system" : "urn:oid:1.2.3.3",
              "code" : "spec1"
            } ]
          }, {
            "coding" : [ {
              "code" : "spec2"
            } ]
          } ]
        }, {
          "resourceType" : "Practitioner",
          "id" : "${json-unit.any-string}",
          "identifier" : [ {
            "system" : "urn:oid:1.2",
            "value" : "id2"
          } ],
          "name" : [ {
            "family" : "Norbi"
          } ],
          "telecom" : [ {
            "system" : "email",
            "value" : "author1@acme.org"
          }, {
            "system" : "email",
            "value" : "author2@acme.org"
          } ]
        }, {
          "resourceType" : "Organization",
          "id" : "${json-unit.any-string}",
          "name" : "authorOrg"
        }, {
          "resourceType" : "Practitioner",
          "id" : "${json-unit.any-string}",
          "identifier" : [ {
            "system" : "urn:oid:1.7",
            "value" : "legal"
          } ],
          "name" : [ {
            "family" : "Gustav"
          } ]
        }, {
          "resourceType" : "Patient",
          "id" : "${json-unit.any-string}",
          "name" : [ {
            "family" : "Susi"
          } ],
          "gender" : "male",
          "birthDate" : "1980",
          "address" : [ {
            "line" : [ "hier" ]
          } ]
        } ],
        "masterIdentifier" : {
          "use" : "usual",
          "system" : "urn:ietf:rfc:3986",
          "value" : "urn:ihe:xds:32848902348"
        },
        "identifier" : [ {
          "use" : "official",
          "system" : "urn:ietf:rfc:3986",
          "value" : "urn:uuid:58642ea0-cb28-4757-af3f-88bca44b3002"
        } ],
        "status" : "current",
        "type" : {
          "coding" : [ {
            "system" : "urn:ihe:xds:scheme6",
            "code" : "code6",
            "display" : "code6"
          } ]
        },
        "category" : [ {
          "coding" : [ {
            "system" : "urn:ihe:xds:scheme2",
            "code" : "code2",
            "display" : "code2"
          } ]
        } ],
        "subject" : {
          "reference" : "Patient/41689208",
          "type" : "Patient",
          "identifier" : {
            "use" : "official",
            "system" : "urn:oid:1.3",
            "value" : "41689208"
          }
        },
        "date" : "${json-unit.any-string}",
        "author" : [ {
          "reference" : "${json-unit.any-string}"
        } ],
        "authenticator" : {
          "reference" : "${json-unit.any-string}",
          "type" : "Practitioner"
        },
        "description" : "comment2",
        "securityLabel" : [ {
          "coding" : [ {
            "system" : "urn:ihe:xds:scheme8",
            "code" : "code8",
            "display" : "code8"
          } ]
        } ],
        "content" : [ {
          "attachment" : {
            "contentType" : "application/octet-stream",
            "language" : "en-US",
            "url" : "http://my.doc.retrieve/binary/32848902348",
            "size" : 123,
            "hash" : "1234567890123456789012345678901234567890",
            "title" : "Document 01",
            "creation" : "1981"
          },
          "format" : {
            "system" : "urn:ihe:xds:scheme3",
            "code" : "code3",
            "display" : "code3"
          }
        } ],
        "context" : {
          "event" : [ {
            "coding" : [ {
              "system" : "urn:ihe:xds:scheme9",
              "code" : "code9",
              "display" : "code9"
            } ]
          } ],
          "period" : {
            "start" : "1980-12",
            "end" : "1981-01"
          },
          "facilityType" : {
            "coding" : [ {
              "system" : "urn:ihe:xds:scheme4",
              "code" : "code4",
              "display" : "code4"
            } ]
          },
          "practiceSetting" : {
            "coding" : [ {
              "system" : "urn:ihe:xds:scheme5",
              "code" : "code5",
              "display" : "code5"
            } ]
          },
          "sourcePatientInfo" : {
            "reference" : "${json-unit.any-string}",
            "type" : "Patient",
            "identifier" : {
              "system" : "urn:oid:4.1",
              "value" : "source"
            }
          },
          "related" : [ {
            "type" : "urn:ihe:iti:xds:2013:order",
            "identifier" : {
              "system" : "urn:oid:1.1.2.3",
              "value" : "ref-id-1"
            },
            "display" : "ABCD"
          }, {
            "type" : "vendor-defined",
            "identifier" : {
              "system" : "urn:oid:2.1.2.3",
              "value" : "ref-id-2"
            },
            "display" : "DEFG"
          } ]
        }
      },
      "request" : {
        "method" : "POST",
        "url" : "DocumentReference"
      }
    }, {
      "fullUrl" : "urn:uuid:58642ea0-cb28-4757-af3f-88bca44b3003",
      "resource" : {
        "resourceType" : "List",
        "meta" : {
          "profile" : [ "https://profiles.ihe.net/ITI/MHD/StructureDefinition/IHE.MHD.Comprehensive.Folder" ]
        },
        "extension" : [ {
          "url" : "https://profiles.ihe.net/ITI/MHD/StructureDefinition/ihe-designationType",
          "valueCodeableConcept" : {
            "coding" : [ {
              "system" : "urn:ihe:xds:scheme7",
              "code" : "code7",
              "display" : "code7"
            } ]
          }
        } ],
        "identifier" : [ {
          "use" : "official",
          "system" : "urn:ietf:rfc:3986",
          "value" : "urn:uuid:58642ea0-cb28-4757-af3f-88bca44b3003"
        }, {
          "use" : "usual",
          "system" : "urn:ietf:rfc:3986",
          "value" : "urn:oid:1.48574589"
        } ],
        "status" : "current",
        "mode" : "working",
        "title" : "Folder 01",
        "code" : {
          "coding" : [ {
            "system" : "https://profiles.ihe.net/ITI/MHD/CodeSystem/MHDlistTypes",
            "code" : "folder",
            "display" : "Folder as a FHIR List"
          } ]
        },
        "subject" : {
          "reference" : "Patient/41689208",
          "type" : "Patient",
          "identifier" : {
            "use" : "official",
            "system" : "urn:oid:1.3",
            "value" : "41689208"
          }
        },
        "date" : "${json-unit.any-string}",
        "note" : [ {
          "text" : "comments3"
        } ],
        "entry" : [ {
          "id" : "urn:uuid:58642ea0-cb28-4757-af3f-88bca44b3004",
          "item" : {
            "reference" : "urn:uuid:58642ea0-cb28-4757-af3f-88bca44b3002",
            "identifier" : {
              "use" : "secondary",
              "system" : "urn:ietf:rfc:3986",
              "value" : "urn:uuid:58642ea0-cb28-4757-af3f-88bca44b3004"
            }
          }
        } ]
      },
      "request" : {
        "method" : "POST",
        "url" : "List"
      }
    }, {
      "fullUrl" : "urn:uuid:58642ea0-cb28-4757-af3f-88bca44b3001",
      "resource" : {
        "resourceType" : "List",
        "meta" : {
          "profile" : [ "https://profiles.ihe.net/ITI/MHD/StructureDefinition/IHE.MHD.Comprehensive.SubmissionSet" ]
        },
        "contained" : [ {
          "resourceType" : "PractitionerRole",
          "id" : "${json-unit.any-string}",
          "practitioner" : {
            "reference" : "${json-unit.any-string}"
          }
        }, {
          "resourceType" : "Practitioner",
          "id" : "${json-unit.any-string}",
          "identifier" : [ {
            "system" : "urn:oid:1.1",
            "value" : "id1"
          } ],
          "name" : [ {
            "family" : "Otto"
          } ]
        } ],
        "extension" : [ {
          "url" : "https://profiles.ihe.net/ITI/MHD/StructureDefinition/ihe-designationType",
          "valueCodeableConcept" : {
            "coding" : [ {
              "system" : "urn:ihe:xds:scheme1",
              "code" : "code1",
              "display" : "code1"
            } ]
          }
        }, {
          "url" : "https://profiles.ihe.net/ITI/MHD/StructureDefinition/ihe-sourceId",
          "valueIdentifier" : {
            "value" : "urn:oid:1.2.3"
          }
        } ],
        "identifier" : [ {
          "use" : "official",
          "system" : "urn:ietf:rfc:3986",
          "value" : "urn:uuid:58642ea0-cb28-4757-af3f-88bca44b3001"
        }, {
          "use" : "usual",
          "system" : "urn:ietf:rfc:3986",
          "value" : "urn:oid:1.123"
        } ],
        "status" : "current",
        "mode" : "working",
        "title" : "Submission Set 01",
        "code" : {
          "coding" : [ {
            "system" : "https://profiles.ihe.net/ITI/MHD/CodeSystem/MHDlistTypes",
            "code" : "submissionset",
            "display" : "SubmissionSet as a FHIR List"
          } ]
        },
        "subject" : {
          "reference" : "Patient/41689208",
          "type" : "Patient",
          "identifier" : {
            "use" : "official",
            "system" : "urn:oid:1.3",
            "value" : "41689208"
          }
        },
        "date" : "1980",
        "source" : {
          "reference" : "${json-unit.any-string}"
        },
        "note" : [ {
          "text" : "comments1"
        } ],
        "entry" : [ {
          "id" : "urn:uuid:58642ea0-cb28-4757-af3f-88bca44b3005",
          "item" : {
            "reference" : "urn:uuid:58642ea0-cb28-4757-af3f-88bca44b3002",
            "identifier" : {
              "use" : "secondary",
              "system" : "urn:ietf:rfc:3986",
              "value" : "urn:uuid:58642ea0-cb28-4757-af3f-88bca44b3005"
            }
          }
        }, {
          "id" : "urn:uuid:58642ea0-cb28-4757-af3f-88bca44b3006",
          "item" : {
            "reference" : "urn:uuid:58642ea0-cb28-4757-af3f-88bca44b3003",
            "identifier" : {
              "use" : "secondary",
              "system" : "urn:ietf:rfc:3986",
              "value" : "urn:uuid:58642ea0-cb28-4757-af3f-88bca44b3006"
            }
          }
        }, {
          "id" : "urn:uuid:58642ea0-cb28-4757-af3f-88bca44b3007",
          "item" : {
            "identifier" : {
              "system" : "urn:ietf:rfc:3986",
              "value" : "urn:uuid:58642ea0-cb28-4757-af3f-88bca44b3004"
            }
          }
        } ]
      },
      "request" : {
        "method" : "POST",
        "url" : "List"
      }
    } ]
  }